,Time,Acc_x,Acc_y,Acc_z
450,1603922298072,667,-2041,2047
451,1603922298122,465,-787,1625
452,1603922298172,-304,-714,1064
453,1603922298222,-875,-761,964
454,1603922298272,-1793,-876,955
455,1603922298322,-1881,-1053,782
456,1603922298372,-1371,-1206,687
457,1603922298422,-1553,-409,761
458,1603922298472,-1693,-507,675
459,1603922298522,-2048,-971,696
460,1603922298572,-2048,-845,232
461,1603922298622,-2048,990,-1148
462,1603922298672,-2048,-633,-2048
463,1603922298722,-2048,-545,-2048
464,1603922298772,-2048,110,-2048
465,1603922298822,-2048,-1310,-830
466,1603922298872,-1339,258,138
467,1603922298922,-2048,-2048,2047
468,1603922298972,-2048,806,2047
469,1603922299022,-2048,-2048,-2048
470,1603922299072,-2048,-1016,607
471,1603922299122,-371,446,636
472,1603922299172,-974,1314,770
473,1603922299222,-254,-1982,1161
474,1603922299272,-115,7,1804
475,1603922299322,214,251,1834
476,1603922299372,-327,-938,1696
477,1603922299422,-2048,-1938,1982
478,1603922299472,-2048,-2048,2047
479,1603922299522,-1548,-1457,1884
480,1603922299572,-2048,-241,2047
481,1603922299622,-245,-1386,2047
482,1603922299672,-16,-1441,2047
483,1603922299722,107,-1348,2047
484,1603922299772,275,-1483,2047
485,1603922299822,0,-1858,2047
486,1603922299872,302,-1252,1889
487,1603922299922,-343,-549,1164
488,1603922299972,-809,-1099,803
489,1603922300022,-1249,-1275,717
490,1603922300072,-1693,-1288,658
491,1603922300122,-1216,-1400,627
492,1603922300172,-1502,-41,952
493,1603922300222,-1932,46,1019
494,1603922300272,-2048,-1690,1052
495,1603922300322,-2048,-364,675
496,1603922300372,-2048,1011,-998
497,1603922300422,-2048,-155,-2048
498,1603922300472,-2048,-1128,-2048
499,1603922300522,-2048,297,-2048
500,1603922300572,-2048,-1128,-1807
501,1603922300622,2047,1185,-1285
502,1603922300672,-2048,-2048,2047
503,1603922300722,-457,1425,2047
504,1603922300772,-2048,-1391,2047
505,1603922300822,-480,1670,1764
506,1603922300872,-154,-66,1116
507,1603922300922,-381,168,1288
508,1603922300972,-394,301,1293
509,1603922301022,-5,-247,1923
510,1603922301072,-252,480,1828
511,1603922301122,-108,-653,1462
512,1603922301172,-1410,-1113,1686
513,1603922301222,-2048,-2048,2047
514,1603922301272,-2048,-2048,1149
515,1603922301322,-2048,-2048,2047
516,1603922301372,-1302,-1686,2047
517,1603922301422,-270,-1332,2047
518,1603922301472,-725,-640,2047
519,1603922301522,60,-1269,2047
520,1603922301572,2,-2026,2047
521,1603922301622,11,-1831,2047
522,1603922301672,151,-1139,1418
523,1603922301722,-279,-531,770
524,1603922301772,-994,-1210,660
525,1603922301822,-1295,-1271,674
526,1603922301872,-1417,-1159,652
527,1603922301922,-947,-905,949
528,1603922301972,-1969,-216,1436
529,1603922302022,-2048,-907,1369
530,1603922302072,-2048,-1424,694
531,1603922302122,-2048,164,-424
532,1603922302172,-2048,116,-2048
533,1603922302222,-2048,-1180,-2048
534,1603922302272,-2048,-50,-2048
535,1603922302322,-2048,-954,-2048
536,1603922302372,-2048,-1676,-2048
537,1603922302422,-2048,-2048,2047
538,1603922302472,2047,2047,-963
539,1603922302522,-2048,-2001,2047
540,1603922302572,-692,305,1481
541,1603922302622,-156,-21,907
542,1603922302672,-818,-544,912
543,1603922302722,-449,117,1336
544,1603922302772,-156,433,1910
545,1603922302822,41,424,2047
546,1603922302872,-156,-450,1319
547,1603922302922,-1706,-1222,1837
548,1603922302972,-2048,-1916,1856
549,1603922303022,-2048,-2048,2047
550,1603922303072,-2048,-1145,-1087
551,1603922303122,-1935,-554,2047
552,1603922303172,445,-649,2047
553,1603922303222,-93,-1120,2047
554,1603922303272,124,-1402,2047
555,1603922303322,-198,-1807,2047
556,1603922303372,-69,-1956,2047
557,1603922303422,280,-1085,1411
558,1603922303472,-508,-514,948
559,1603922303522,-1125,-917,904
560,1603922303572,-1736,-686,940
561,1603922303622,-1528,-880,803
562,1603922303672,-1362,-396,1061
563,1603922303722,-2028,95,1235
564,1603922303772,-2048,-1506,1248
565,1603922303822,-2048,-1809,631
566,1603922303872,-2048,503,-618
567,1603922303922,-2048,8,-2048
568,1603922303972,-2048,-808,-2048
569,1603922304022,-2048,165,-2048
570,1603922304072,-2048,-1025,-1937
571,1603922304122,-2048,-40,2047
572,1603922304172,-2048,-2048,2047
573,1603922304222,-2048,2047,1687
574,1603922304272,-2048,2047,2047
575,1603922304322,-552,1101,1060
576,1603922304372,-434,-268,1105
577,1603922304422,-330,-37,1143
578,1603922304472,-284,-66,1348
579,1603922304522,76,-174,1878
580,1603922304572,-278,42,1705
581,1603922304622,65,-709,1518
582,1603922304672,-1240,-845,1696
583,1603922304722,-2048,-2048,2047
584,1603922304772,-2048,-2048,1497
585,1603922304822,-2048,-2048,1444
586,1603922304872,-2048,-1834,2047
587,1603922304922,347,-951,2047
588,1603922304972,-197,-940,2047
589,1603922305022,-45,-1332,2047
590,1603922305072,-63,-1985,2047
591,1603922305122,-32,-1668,2047
592,1603922305172,27,-1110,1507
593,1603922305222,-621,-682,923
594,1603922305272,-1201,-955,843
595,1603922305322,-1481,-884,749
596,1603922305372,-1563,-853,650
597,1603922305422,-1239,-698,897
598,1603922305472,-2018,-95,917
599,1603922305522,-2048,-1212,794
600,1603922305572,-2048,-1946,302
601,1603922305622,-2048,798,-829
602,1603922305672,-2048,349,-2048
603,1603922305722,-2048,-931,-2048
604,1603922305772,-2048,357,-2048
605,1603922305822,1251,-2048,-145
606,1603922305872,-2048,-2048,2047
607,1603922305922,-2048,2047,1873
608,1603922305972,-1720,-1942,-2048
609,1603922306022,-1882,-1925,631
610,1603922306072,-441,529,1305
611,1603922306122,-986,-601,692
612,1603922306172,-687,150,1098
613,1603922306222,-210,37,1766
614,1603922306272,-168,318,1819
615,1603922306322,-413,93,1240
616,1603922306372,-1370,-1066,1846
617,1603922306422,-2048,-2048,2011
618,1603922306472,-2048,-2048,1270
619,1603922306522,-2048,-1568,-1411
620,1603922306572,-2048,-1631,2047
621,1603922306622,134,-1828,2047
622,1603922306672,55,-859,2047
623,1603922306722,9,-1164,2047
624,1603922306772,91,-1899,2047
625,1603922306822,-35,-1877,2047
626,1603922306872,142,-1177,1668
627,1603922306922,-339,-710,855
628,1603922306972,-930,-822,832
629,1603922307022,-1569,-893,882
630,1603922307072,-1421,-1029,680
631,1603922307122,-1098,-755,845
632,1603922307172,-1462,-244,1006
633,1603922307222,-2048,-1405,1135
634,1603922307272,-2048,-2048,802
635,1603922307322,-2048,371,-373
636,1603922307372,-2048,615,-2048
637,1603922307422,-2048,-791,-2048
638,1603922307472,-2048,460,-2048
639,1603922307522,-1845,-2048,-1946
640,1603922307572,-2048,-971,2047
641,1603922307622,-2048,1006,2047
642,1603922307672,-2048,2047,303
643,1603922307722,-228,478,2047
644,1603922307772,-411,2047,1029
645,1603922307822,-116,-691,1098
646,1603922307872,-449,-198,1081
647,1603922307922,-384,393,1253
648,1603922307972,5,58,1921
649,1603922308022,-175,491,1675
650,1603922308072,-277,-667,1638
651,1603922308122,-2048,-1269,2047
652,1603922308172,-2048,-2048,2047
653,1603922308222,-2048,-2048,1433
654,1603922308272,-2048,-2048,2047
655,1603922308322,-837,-1102,2047
656,1603922308372,232,-782,2047
657,1603922308422,-626,-1243,2047
658,1603922308472,258,-1587,2047
659,1603922308522,178,-2014,2047
660,1603922308572,190,-1768,2047
661,1603922308622,-110,-1156,1391
662,1603922308672,-763,-882,819
663,1603922308722,-1175,-1108,677
664,1603922308772,-1396,-889,634
665,1603922308822,-1296,-1138,677
666,1603922308872,-925,-793,868
667,1603922308922,-1664,-147,1072
668,1603922308972,-2048,-1611,1088
669,1603922309022,-2048,-1664,409
670,1603922309072,-2048,476,-694
671,1603922309122,-2048,211,-2048
672,1603922309172,-2048,-604,-2048
673,1603922309222,-2048,277,-2048
674,1603922309272,-2048,-2048,-1505
675,1603922309322,-2048,546,2047
676,1603922309372,-2048,-1473,2047
677,1603922309422,-2048,-175,2047
678,1603922309472,445,-1421,-1171
679,1603922309522,-742,785,896
680,1603922309572,-47,-936,1257
681,1603922309622,-563,-108,1072
682,1603922309672,-123,-82,1488
683,1603922309722,9,-75,2008
684,1603922309772,0,135,1919
685,1603922309822,-712,-777,1430
686,1603922309872,-2048,-1213,1990
687,1603922309922,-2048,-2048,1879
688,1603922309972,-2048,-2048,1026
689,1603922310022,-2048,-1763,2047
690,1603922310072,-893,-1943,2047
691,1603922310122,171,-1410,2047
692,1603922310172,390,-1148,2047
693,1603922310222,742,-1652,2047
694,1603922310272,-100,-1730,2047
695,1603922310322,35,-1783,2047
696,1603922310372,-231,-833,1541
697,1603922310422,-1254,-567,1087
698,1603922310472,-1450,-735,868
699,1603922310522,-1955,-998,850
700,1603922310572,-1870,-1205,782
701,1603922310622,-1649,-838,920
702,1603922310672,-1995,-177,1065
703,1603922310722,-2048,-1509,1024
704,1603922310772,-2048,-1180,777
705,1603922310822,-2048,1213,-1112
706,1603922310872,-2048,-476,-2048
707,1603922310922,-2048,63,-2048
708,1603922310972,-2048,-147,-2048
709,1603922311022,-2048,-1158,-1674
710,1603922311072,-2048,201,2047
711,1603922311122,-2048,-58,1414
712,1603922311172,-2048,963,-1418
713,1603922311222,-1100,-856,-1249
714,1603922311272,-378,242,914
715,1603922311322,-109,-981,1111
716,1603922311372,-396,57,1227
717,1603922311422,-38,-271,1625
718,1603922311472,287,87,1913
719,1603922311522,-239,260,1682
720,1603922311572,-736,-869,1765
721,1603922311622,-2048,-2048,1976
722,1603922311672,-2048,-2048,1664
723,1603922311722,1139,-1127,1333
724,1603922311772,-1444,-1218,2047
725,1603922311822,91,-1458,2047
726,1603922311872,125,-942,2047
727,1603922311922,-302,-1639,2047
728,1603922311972,492,-1850,2047
729,1603922312022,244,-1651,2047
730,1603922312072,-94,-1501,2047
731,1603922312122,-319,-1060,1388
732,1603922312172,-1288,-803,837
733,1603922312222,-1516,-931,554
734,1603922312272,-1784,-1184,640
735,1603922312322,-1315,-1220,592
736,1603922312372,-1402,-426,818
737,1603922312422,-2048,-596,922
738,1603922312472,-2048,-2005,772
739,1603922312522,-2048,-1208,172
740,1603922312572,-2048,982,-1517
741,1603922312622,-2048,-229,-2048
742,1603922312672,-2048,-523,-2048
743,1603922312722,-2048,-88,-2048
744,1603922312772,-2048,-2048,-2048
745,1603922312822,-2048,-2048,2047
746,1603922312872,1385,2047,1379
747,1603922312922,2047,-1647,-2048
748,1603922312972,-858,-732,1257
749,1603922313022,-465,912,845
750,1603922313072,-927,-367,861
751,1603922313122,-471,100,1243
752,1603922313172,29,13,1892
753,1603922313222,185,265,2047
754,1603922313272,-253,-310,1381
755,1603922313322,-1243,-977,1819
756,1603922313372,-2048,-2048,2047
757,1603922313422,-2048,-2048,1473
758,1603922313472,-2048,172,244
759,1603922313522,-2048,-1097,2047
760,1603922313572,22,-2048,2047
761,1603922313622,-135,-1804,2047
762,1603922313672,118,-1470,2047
763,1603922313722,-65,-1668,2047
764,1603922313772,9,-2048,2047
765,1603922313822,67,-1992,1880
766,1603922313872,-581,-312,1252
767,1603922313922,-870,-667,1017
768,1603922313972,-1647,-1011,1020
769,1603922314022,-1698,-858,888
770,1603922314072,-1264,-874,1049
771,1603922314122,-2017,343,1472
772,1603922314172,-2048,-479,1279
773,1603922314222,-2048,-2048,737
774,1603922314272,-2048,-880,-518
775,1603922314322,-2048,802,-2048
776,1603922314372,-2048,-1210,-2048
777,1603922314422,-2048,32,-2048
778,1603922314472,-2048,-467,-2048
779,1603922314522,382,-2048,-627
780,1603922314572,-2048,-2048,2047
781,1603922314622,2047,2047,-1478
782,1603922314672,2047,-616,-2048
783,1603922314722,-705,998,1317
784,1603922314772,-336,572,1105
785,1603922314822,-706,38,1155
786,1603922314872,-375,-279,1250
787,1603922314922,97,384,1871
788,1603922314972,-294,312,1613
789,1603922315022,-379,-465,1463
790,1603922315072,-2048,-1741,2001
791,1603922315122,-2048,-2048,1932
792,1603922315172,-673,-1313,1048
793,1603922315222,-2048,-1221,2047
794,1603922315272,-1010,-2048,2047
795,1603922315322,-20,-1327,2047
796,1603922315372,-795,-1070,2047
797,1603922315422,-112,-1609,2047
798,1603922315472,87,-2048,2047
799,1603922315522,242,-2010,2047
800,1603922315572,-18,-1306,1712
801,1603922315622,-473,-599,995
802,1603922315672,-970,-1099,877
803,1603922315722,-1541,-836,787
804,1603922315772,-1504,-1039,704
805,1603922315822,-1059,-1033,846
806,1603922315872,-1610,-212,912
807,1603922315922,-2048,-851,1025
808,1603922315972,-2048,-1681,843
809,1603922316022,-2048,466,-515
810,1603922316072,-2048,676,-2035
811,1603922316122,-2048,-1096,-2048
812,1603922316172,-2048,62,-2048
813,1603922316222,-2048,-1033,-2048
814,1603922316272,630,2047,538
815,1603922316322,-2048,251,2047
816,1603922316372,-377,2047,-152
817,1603922316422,-2048,1129,2047
818,1603922316472,-526,2047,1123
819,1603922316522,-274,-63,1260
820,1603922316572,-444,-22,1204
821,1603922316622,-123,202,1616
822,1603922316672,120,-57,1960
823,1603922316722,-372,196,1519
824,1603922316772,-892,-640,1668
825,1603922316822,-2048,-1608,1958
826,1603922316872,-2048,-2048,1474
827,1603922316922,-2048,-2048,1089
828,1603922316972,-2048,-1795,2047
829,1603922317022,-1440,-1721,2047
830,1603922317072,9,-319,2047
831,1603922317122,-988,-1433,2047
832,1603922317172,-428,-1640,2047
833,1603922317222,-201,-1781,2047
834,1603922317272,445,-1589,2047
835,1603922317322,139,-697,1185
836,1603922317372,-632,-378,888
837,1603922317422,-1192,-1072,852
838,1603922317472,-1654,-887,727
839,1603922317522,-1507,-875,569
840,1603922317572,-1350,-939,914
841,1603922317622,-1767,-696,948
842,1603922317672,-2048,-1043,1105
843,1603922317722,-2048,-1600,329
844,1603922317772,-2048,1068,-1080
845,1603922317822,-2048,-606,-2048
846,1603922317872,-2048,-726,-2048
847,1603922317922,-2048,500,-2048
848,1603922317972,2047,-2048,-1041
849,1603922318022,-2048,-1467,2047
850,1603922318072,-2048,2047,1061
851,1603922318122,-2048,-2048,-2048
852,1603922318172,-2048,-742,606
853,1603922318222,-185,295,839
854,1603922318272,-504,-197,866
855,1603922318322,-918,413,1123
856,1603922318372,231,784,1906
857,1603922318422,-247,-312,1922
858,1603922318472,-199,-686,1474
859,1603922318522,-1875,-1694,1989
860,1603922318572,-2048,-2048,2022
861,1603922318622,-2048,-2048,1245
862,1603922318672,-2048,-2048,2047
863,1603922318722,-2048,-1723,2047
864,1603922318772,315,-1129,2047
865,1603922318822,-189,-1052,2047
866,1603922318872,-473,-1389,2047
867,1603922318922,57,-1695,2047
868,1603922318972,336,-1377,2047
869,1603922319022,-78,-1018,2047
870,1603922319072,-814,-965,1238
871,1603922319122,-684,-359,544
872,1603922319172,-1489,-1150,601
873,1603922319222,-1668,-1469,464
874,1603922319272,-977,-1448,410
875,1603922319322,-1310,-601,807
876,1603922319372,-2048,-345,904
877,1603922319422,-2048,-1531,674
878,1603922319472,-2048,738,-547
879,1603922319522,-2048,1125,-2048
880,1603922319572,-2048,-576,-2048
881,1603922319622,-2048,-131,-2048
882,1603922319672,-2048,-493,-2048
883,1603922319722,-2048,-2048,-2048
884,1603922319772,-2048,-2048,2047
885,1603922319822,2047,2047,-2048
886,1603922319872,-2048,-164,2047
887,1603922319922,-1522,1219,741
888,1603922319972,22,45,1127
889,1603922320022,-642,262,1197
890,1603922320072,-15,-103,1640
891,1603922320122,-148,-42,1848
892,1603922320172,4,-464,1590
893,1603922320222,-486,-1019,1392
894,1603922320272,-2048,-2048,2047
895,1603922320322,-2048,-2048,2047
896,1603922320372,-1591,-15,-1330
897,1603922320422,-1511,-522,2047
898,1603922320472,-99,-1509,2047
899,1603922320522,-382,-1255,2047
